
 ------------------------------------------------------------
     normal          Raman Scattering Plot
 ------------------------------------------------------------
 Excitation wavelength  514.50 nm
 Convolution lineshape is lorentzian  
 FWHM   20.00  1/cm
 ------------------------------------------------------------
 ------------------------------------------------------------
 # of frequencies :     3
 ------------------------------------------------------------
 #  freq [ 1/cm]  S [Ang**4/amu]
 ------------------------------------------------------------
   1  1582.10        1.6775
   2  3674.09      114.8866
   3  3785.25       28.8927
 ------------------------------------------------------------
  1524.42    0.5942E-04
  1526.75    0.6428E-04
  1529.08    0.6976E-04
  1531.40    0.7598E-04
  1533.73    0.8307E-04
  1536.05    0.9119E-04
  1538.38    0.1006E-03
  1540.70    0.1114E-03
  1543.03    0.1241E-03
  1545.35    0.1391E-03
  1547.68    0.1569E-03
  1550.00    0.1783E-03
  1552.33    0.2041E-03
  1554.66    0.2358E-03
  1556.98    0.2751E-03
  1559.31    0.3244E-03
  1561.63    0.3871E-03
  1563.96    0.4679E-03
  1566.28    0.5732E-03
  1568.61    0.7115E-03
  1570.93    0.8928E-03
  1573.26    0.1126E-02
  1575.59    0.1408E-02
  1577.91    0.1705E-02
  1580.24    0.1937E-02
  1582.56    0.2000E-02
  1584.89    0.1860E-02
  1587.21    0.1589E-02
  1589.54    0.1291E-02
  1591.86    0.1027E-02
  1594.19    0.8149E-03
  1596.51    0.6519E-03
  1598.84    0.5279E-03
  1601.17    0.4333E-03
  1603.49    0.3603E-03
  1605.82    0.3034E-03
  1608.14    0.2585E-03
  1610.47    0.2225E-03
  1612.79    0.1933E-03
  1615.12    0.1694E-03
  1617.44    0.1495E-03
  1619.77    0.1329E-03
  1622.09    0.1189E-03
  1624.42    0.1070E-03
  1626.75    0.9675E-04
  1629.07    0.8791E-04
  1631.40    0.8023E-04
  1633.72    0.7351E-04
  1636.05    0.6760E-04
  1638.37    0.6238E-04
  1640.70    0.5775E-04
  1643.02    0.5362E-04
  1645.35    0.4992E-04
  1647.67    0.4659E-04
  1650.00    0.4359E-04
  1652.33    0.4088E-04
  1654.65    0.3842E-04
  1656.98    0.3618E-04
  1659.30    0.3413E-04
  1661.63    0.3226E-04
  1663.95    0.3054E-04
  1666.28    0.2896E-04
  1668.60    0.2750E-04
  1670.93    0.2616E-04
  1673.26    0.2491E-04
  1675.58    0.2376E-04
  1677.91    0.2268E-04
  1680.23    0.2169E-04
  1682.56    0.2076E-04
  1684.88    0.1989E-04
  1687.21    0.1907E-04
  1689.53    0.1831E-04
  1691.86    0.1760E-04
  1694.18    0.1693E-04
  1696.51    0.1630E-04
  1698.84    0.1571E-04
  1701.16    0.1515E-04
  1703.49    0.1463E-04
  1705.81    0.1413E-04
  1708.14    0.1366E-04
  1710.46    0.1321E-04
  1712.79    0.1279E-04
  1715.11    0.1239E-04
  1717.44    0.1201E-04
  1719.76    0.1165E-04
  1722.09    0.1131E-04
  1724.42    0.1099E-04
  1726.74    0.1068E-04
  1729.07    0.1038E-04
  1731.39    0.1010E-04
  1733.72    0.9833E-05
  1736.04    0.9576E-05
  1738.37    0.9331E-05
  1740.69    0.9097E-05
  1743.02    0.8873E-05
  1745.34    0.8659E-05
  1747.67    0.8453E-05
  1750.00    0.8257E-05
  1752.32    0.8068E-05
  1754.65    0.7887E-05
  1756.97    0.7713E-05
  1759.30    0.7546E-05
  1761.62    0.7386E-05
  1763.95    0.7232E-05
  1766.27    0.7083E-05
  1768.60    0.6941E-05
  1770.93    0.6804E-05
  1773.25    0.6671E-05
  1775.58    0.6544E-05
  1777.90    0.6421E-05
  1780.23    0.6303E-05
  1782.55    0.6189E-05
  1784.88    0.6078E-05
  1787.20    0.5972E-05
  1789.53    0.5869E-05
  1791.85    0.5770E-05
  1794.18    0.5674E-05
  1796.51    0.5582E-05
  1798.83    0.5492E-05
  1801.16    0.5405E-05
  1803.48    0.5321E-05
  1805.81    0.5240E-05
  1808.13    0.5162E-05
  1810.46    0.5086E-05
  1812.78    0.5012E-05
  1815.11    0.4941E-05
  1817.43    0.4871E-05
  1819.76    0.4804E-05
  1822.09    0.4739E-05
  1824.41    0.4676E-05
  1826.74    0.4615E-05
  1829.06    0.4556E-05
  1831.39    0.4498E-05
  1833.71    0.4442E-05
  1836.04    0.4388E-05
  1838.36    0.4335E-05
  1840.69    0.4284E-05
  1843.01    0.4234E-05
  1845.34    0.4186E-05
  1847.67    0.4139E-05
  1849.99    0.4093E-05
  1852.32    0.4049E-05
  1854.64    0.4006E-05
  1856.97    0.3964E-05
  1859.29    0.3923E-05
  1861.62    0.3883E-05
  1863.94    0.3844E-05
  1866.27    0.3807E-05
  1868.60    0.3770E-05
  1870.92    0.3734E-05
  1873.25    0.3700E-05
  1875.57    0.3666E-05
  1877.90    0.3633E-05
  1880.22    0.3601E-05
  1882.55    0.3570E-05
  1884.87    0.3539E-05
  1887.20    0.3510E-05
  1889.52    0.3481E-05
  1891.85    0.3453E-05
  1894.18    0.3425E-05
  1896.50    0.3399E-05
  1898.83    0.3373E-05
  1901.15    0.3347E-05
  1903.48    0.3322E-05
  1905.80    0.3298E-05
  1908.13    0.3275E-05
  1910.45    0.3252E-05
  1912.78    0.3230E-05
  1915.10    0.3208E-05
  1917.43    0.3187E-05
  1919.76    0.3166E-05
  1922.08    0.3146E-05
  1924.41    0.3126E-05
  1926.73    0.3107E-05
  1929.06    0.3088E-05
  1931.38    0.3070E-05
  1933.71    0.3052E-05
  1936.03    0.3034E-05
  1938.36    0.3017E-05
  1940.68    0.3001E-05
  1943.01    0.2985E-05
  1945.34    0.2969E-05
  1947.66    0.2954E-05
  1949.99    0.2939E-05
  1952.31    0.2924E-05
  1954.64    0.2910E-05
  1956.96    0.2896E-05
  1959.29    0.2882E-05
  1961.61    0.2869E-05
  1963.94    0.2856E-05
  1966.27    0.2844E-05
  1968.59    0.2831E-05
  1970.92    0.2820E-05
  1973.24    0.2808E-05
  1975.57    0.2797E-05
  1977.89    0.2785E-05
  1980.22    0.2775E-05
  1982.54    0.2764E-05
  1984.87    0.2754E-05
  1987.19    0.2744E-05
  1989.52    0.2734E-05
  1991.85    0.2725E-05
  1994.17    0.2716E-05
  1996.50    0.2707E-05
  1998.82    0.2698E-05
  2001.15    0.2689E-05
  2003.47    0.2681E-05
  2005.80    0.2673E-05
  2008.12    0.2665E-05
  2010.45    0.2658E-05
  2012.77    0.2650E-05
  2015.10    0.2643E-05
  2017.43    0.2636E-05
  2019.75    0.2629E-05
  2022.08    0.2623E-05
  2024.40    0.2616E-05
  2026.73    0.2610E-05
  2029.05    0.2604E-05
  2031.38    0.2598E-05
  2033.70    0.2592E-05
  2036.03    0.2587E-05
  2038.36    0.2582E-05
  2040.68    0.2576E-05
  2043.01    0.2571E-05
  2045.33    0.2567E-05
  2047.66    0.2562E-05
  2049.98    0.2557E-05
  2052.31    0.2553E-05
  2054.63    0.2549E-05
  2056.96    0.2545E-05
  2059.28    0.2541E-05
  2061.61    0.2537E-05
  2063.94    0.2533E-05
  2066.26    0.2530E-05
  2068.59    0.2527E-05
  2070.91    0.2523E-05
  2073.24    0.2520E-05
  2075.56    0.2517E-05
  2077.89    0.2515E-05
  2080.21    0.2512E-05
  2082.54    0.2509E-05
  2084.86    0.2507E-05
  2087.19    0.2505E-05
  2089.52    0.2502E-05
  2091.84    0.2500E-05
  2094.17    0.2498E-05
  2096.49    0.2497E-05
  2098.82    0.2495E-05
  2101.14    0.2493E-05
  2103.47    0.2492E-05
  2105.79    0.2490E-05
  2108.12    0.2489E-05
  2110.44    0.2488E-05
  2112.77    0.2487E-05
  2115.10    0.2486E-05
  2117.42    0.2485E-05
  2119.75    0.2484E-05
  2122.07    0.2484E-05
  2124.40    0.2483E-05
  2126.72    0.2483E-05
  2129.05    0.2482E-05
  2131.37    0.2482E-05
  2133.70    0.2482E-05
  2136.03    0.2482E-05
  2138.35    0.2482E-05
  2140.68    0.2482E-05
  2143.00    0.2482E-05
  2145.33    0.2483E-05
  2147.65    0.2483E-05
  2149.98    0.2484E-05
  2152.30    0.2484E-05
  2154.63    0.2485E-05
  2156.95    0.2486E-05
  2159.28    0.2486E-05
  2161.61    0.2487E-05
  2163.93    0.2488E-05
  2166.26    0.2489E-05
  2168.58    0.2491E-05
  2170.91    0.2492E-05
  2173.23    0.2493E-05
  2175.56    0.2495E-05
  2177.88    0.2496E-05
  2180.21    0.2498E-05
  2182.53    0.2499E-05
  2184.86    0.2501E-05
  2187.19    0.2503E-05
  2189.51    0.2505E-05
  2191.84    0.2507E-05
  2194.16    0.2509E-05
  2196.49    0.2511E-05
  2198.81    0.2513E-05
  2201.14    0.2515E-05
  2203.46    0.2518E-05
  2205.79    0.2520E-05
  2208.11    0.2522E-05
  2210.44    0.2525E-05
  2212.77    0.2528E-05
  2215.09    0.2530E-05
  2217.42    0.2533E-05
  2219.74    0.2536E-05
  2222.07    0.2539E-05
  2224.39    0.2542E-05
  2226.72    0.2545E-05
  2229.04    0.2548E-05
  2231.37    0.2551E-05
  2233.70    0.2554E-05
  2236.02    0.2558E-05
  2238.35    0.2561E-05
  2240.67    0.2564E-05
  2243.00    0.2568E-05
  2245.32    0.2571E-05
  2247.65    0.2575E-05
  2249.97    0.2579E-05
  2252.30    0.2583E-05
  2254.62    0.2586E-05
  2256.95    0.2590E-05
  2259.28    0.2594E-05
  2261.60    0.2598E-05
  2263.93    0.2602E-05
  2266.25    0.2607E-05
  2268.58    0.2611E-05
  2270.90    0.2615E-05
  2273.23    0.2620E-05
  2275.55    0.2624E-05
  2277.88    0.2628E-05
  2280.20    0.2633E-05
  2282.53    0.2638E-05
  2284.86    0.2642E-05
  2287.18    0.2647E-05
  2289.51    0.2652E-05
  2291.83    0.2657E-05
  2294.16    0.2662E-05
  2296.48    0.2667E-05
  2298.81    0.2672E-05
  2301.13    0.2677E-05
  2303.46    0.2682E-05
  2305.78    0.2687E-05
  2308.11    0.2693E-05
  2310.44    0.2698E-05
  2312.76    0.2703E-05
  2315.09    0.2709E-05
  2317.41    0.2714E-05
  2319.74    0.2720E-05
  2322.06    0.2726E-05
  2324.39    0.2731E-05
  2326.71    0.2737E-05
  2329.04    0.2743E-05
  2331.37    0.2749E-05
  2333.69    0.2755E-05
  2336.02    0.2761E-05
  2338.34    0.2767E-05
  2340.67    0.2773E-05
  2342.99    0.2780E-05
  2345.32    0.2786E-05
  2347.64    0.2792E-05
  2349.97    0.2799E-05
  2352.29    0.2805E-05
  2354.62    0.2812E-05
  2356.95    0.2818E-05
  2359.27    0.2825E-05
  2361.60    0.2832E-05
  2363.92    0.2839E-05
  2366.25    0.2846E-05
  2368.57    0.2853E-05
  2370.90    0.2860E-05
  2373.22    0.2867E-05
  2375.55    0.2874E-05
  2377.87    0.2881E-05
  2380.20    0.2888E-05
  2382.53    0.2896E-05
  2384.85    0.2903E-05
  2387.18    0.2910E-05
  2389.50    0.2918E-05
  2391.83    0.2926E-05
  2394.15    0.2933E-05
  2396.48    0.2941E-05
  2398.80    0.2949E-05
  2401.13    0.2957E-05
  2403.45    0.2964E-05
  2405.78    0.2972E-05
  2408.11    0.2980E-05
  2410.43    0.2989E-05
  2412.76    0.2997E-05
  2415.08    0.3005E-05
  2417.41    0.3013E-05
  2419.73    0.3022E-05
  2422.06    0.3030E-05
  2424.38    0.3039E-05
  2426.71    0.3047E-05
  2429.04    0.3056E-05
  2431.36    0.3065E-05
  2433.69    0.3074E-05
  2436.01    0.3082E-05
  2438.34    0.3091E-05
  2440.66    0.3100E-05
  2442.99    0.3109E-05
  2445.31    0.3119E-05
  2447.64    0.3128E-05
  2449.96    0.3137E-05
  2452.29    0.3146E-05
  2454.62    0.3156E-05
  2456.94    0.3165E-05
  2459.27    0.3175E-05
  2461.59    0.3185E-05
  2463.92    0.3194E-05
  2466.24    0.3204E-05
  2468.57    0.3214E-05
  2470.89    0.3224E-05
  2473.22    0.3234E-05
  2475.54    0.3244E-05
  2477.87    0.3254E-05
  2480.20    0.3265E-05
  2482.52    0.3275E-05
  2484.85    0.3285E-05
  2487.17    0.3296E-05
  2489.50    0.3306E-05
  2491.82    0.3317E-05
  2494.15    0.3328E-05
  2496.47    0.3339E-05
  2498.80    0.3349E-05
  2501.13    0.3360E-05
  2503.45    0.3371E-05
  2505.78    0.3383E-05
  2508.10    0.3394E-05
  2510.43    0.3405E-05
  2512.75    0.3416E-05
  2515.08    0.3428E-05
  2517.40    0.3439E-05
  2519.73    0.3451E-05
  2522.05    0.3463E-05
  2524.38    0.3475E-05
  2526.71    0.3486E-05
  2529.03    0.3498E-05
  2531.36    0.3511E-05
  2533.68    0.3523E-05
  2536.01    0.3535E-05
  2538.33    0.3547E-05
  2540.66    0.3560E-05
  2542.98    0.3572E-05
  2545.31    0.3585E-05
  2547.63    0.3597E-05
  2549.96    0.3610E-05
  2552.29    0.3623E-05
  2554.61    0.3636E-05
  2556.94    0.3649E-05
  2559.26    0.3662E-05
  2561.59    0.3675E-05
  2563.91    0.3689E-05
  2566.24    0.3702E-05
  2568.56    0.3716E-05
  2570.89    0.3729E-05
  2573.21    0.3743E-05
  2575.54    0.3757E-05
  2577.87    0.3771E-05
  2580.19    0.3785E-05
  2582.52    0.3799E-05
  2584.84    0.3813E-05
  2587.17    0.3827E-05
  2589.49    0.3842E-05
  2591.82    0.3856E-05
  2594.14    0.3871E-05
  2596.47    0.3886E-05
  2598.80    0.3901E-05
  2601.12    0.3916E-05
  2603.45    0.3931E-05
  2605.77    0.3946E-05
  2608.10    0.3961E-05
  2610.42    0.3976E-05
  2612.75    0.3992E-05
  2615.07    0.4008E-05
  2617.40    0.4023E-05
  2619.72    0.4039E-05
  2622.05    0.4055E-05
  2624.38    0.4071E-05
  2626.70    0.4087E-05
  2629.03    0.4104E-05
  2631.35    0.4120E-05
  2633.68    0.4137E-05
  2636.00    0.4153E-05
  2638.33    0.4170E-05
  2640.65    0.4187E-05
  2642.98    0.4204E-05
  2645.30    0.4221E-05
  2647.63    0.4238E-05
  2649.96    0.4256E-05
  2652.28    0.4273E-05
  2654.61    0.4291E-05
  2656.93    0.4309E-05
  2659.26    0.4327E-05
  2661.58    0.4345E-05
  2663.91    0.4363E-05
  2666.23    0.4381E-05
  2668.56    0.4400E-05
  2670.88    0.4418E-05
  2673.21    0.4437E-05
  2675.54    0.4456E-05
  2677.86    0.4475E-05
  2680.19    0.4494E-05
  2682.51    0.4513E-05
  2684.84    0.4533E-05
  2687.16    0.4552E-05
  2689.49    0.4572E-05
  2691.81    0.4592E-05
  2694.14    0.4612E-05
  2696.47    0.4632E-05
  2698.79    0.4653E-05
  2701.12    0.4673E-05
  2703.44    0.4694E-05
  2705.77    0.4714E-05
  2708.09    0.4735E-05
  2710.42    0.4756E-05
  2712.74    0.4778E-05
  2715.07    0.4799E-05
  2717.39    0.4821E-05
  2719.72    0.4842E-05
  2722.05    0.4864E-05
  2724.37    0.4886E-05
  2726.70    0.4909E-05
  2729.02    0.4931E-05
  2731.35    0.4954E-05
  2733.67    0.4976E-05
  2736.00    0.4999E-05
  2738.32    0.5023E-05
  2740.65    0.5046E-05
  2742.97    0.5069E-05
  2745.30    0.5093E-05
  2747.63    0.5117E-05
  2749.95    0.5141E-05
  2752.28    0.5165E-05
  2754.60    0.5189E-05
  2756.93    0.5214E-05
  2759.25    0.5239E-05
  2761.58    0.5264E-05
  2763.90    0.5289E-05
  2766.23    0.5314E-05
  2768.55    0.5340E-05
  2770.88    0.5366E-05
  2773.21    0.5392E-05
  2775.53    0.5418E-05
  2777.86    0.5444E-05
  2780.18    0.5471E-05
  2782.51    0.5498E-05
  2784.83    0.5525E-05
  2787.16    0.5552E-05
  2789.48    0.5579E-05
  2791.81    0.5607E-05
  2794.14    0.5635E-05
  2796.46    0.5663E-05
  2798.79    0.5691E-05
  2801.11    0.5720E-05
  2803.44    0.5749E-05
  2805.76    0.5778E-05
  2808.09    0.5807E-05
  2810.41    0.5837E-05
  2812.74    0.5867E-05
  2815.06    0.5897E-05
  2817.39    0.5927E-05
  2819.72    0.5957E-05
  2822.04    0.5988E-05
  2824.37    0.6019E-05
  2826.69    0.6050E-05
  2829.02    0.6082E-05
  2831.34    0.6114E-05
  2833.67    0.6146E-05
  2835.99    0.6178E-05
  2838.32    0.6211E-05
  2840.64    0.6244E-05
  2842.97    0.6277E-05
  2845.30    0.6310E-05
  2847.62    0.6344E-05
  2849.95    0.6378E-05
  2852.27    0.6413E-05
  2854.60    0.6447E-05
  2856.92    0.6482E-05
  2859.25    0.6517E-05
  2861.57    0.6553E-05
  2863.90    0.6589E-05
  2866.23    0.6625E-05
  2868.55    0.6661E-05
  2870.88    0.6698E-05
  2873.20    0.6735E-05
  2875.53    0.6772E-05
  2877.85    0.6810E-05
  2880.18    0.6848E-05
  2882.50    0.6887E-05
  2884.83    0.6925E-05
  2887.15    0.6965E-05
  2889.48    0.7004E-05
  2891.81    0.7044E-05
  2894.13    0.7084E-05
  2896.46    0.7124E-05
  2898.78    0.7165E-05
  2901.11    0.7207E-05
  2903.43    0.7248E-05
  2905.76    0.7290E-05
  2908.08    0.7333E-05
  2910.41    0.7375E-05
  2912.73    0.7418E-05
  2915.06    0.7462E-05
  2917.39    0.7506E-05
  2919.71    0.7550E-05
  2922.04    0.7595E-05
  2924.36    0.7640E-05
  2926.69    0.7686E-05
  2929.01    0.7732E-05
  2931.34    0.7778E-05
  2933.66    0.7825E-05
  2935.99    0.7873E-05
  2938.31    0.7920E-05
  2940.64    0.7969E-05
  2942.97    0.8017E-05
  2945.29    0.8067E-05
  2947.62    0.8116E-05
  2949.94    0.8166E-05
  2952.27    0.8217E-05
  2954.59    0.8268E-05
  2956.92    0.8319E-05
  2959.24    0.8372E-05
  2961.57    0.8424E-05
  2963.90    0.8477E-05
  2966.22    0.8531E-05
  2968.55    0.8585E-05
  2970.87    0.8640E-05
  2973.20    0.8695E-05
  2975.52    0.8751E-05
  2977.85    0.8807E-05
  2980.17    0.8864E-05
  2982.50    0.8921E-05
  2984.82    0.8979E-05
  2987.15    0.9038E-05
  2989.48    0.9097E-05
  2991.80    0.9157E-05
  2994.13    0.9217E-05
  2996.45    0.9278E-05
  2998.78    0.9340E-05
  3001.10    0.9402E-05
  3003.43    0.9465E-05
  3005.75    0.9529E-05
  3008.08    0.9593E-05
  3010.40    0.9658E-05
  3012.73    0.9723E-05
  3015.06    0.9790E-05
  3017.38    0.9857E-05
  3019.71    0.9924E-05
  3022.03    0.9993E-05
  3024.36    0.1006E-04
  3026.68    0.1013E-04
  3029.01    0.1020E-04
  3031.33    0.1027E-04
  3033.66    0.1035E-04
  3035.98    0.1042E-04
  3038.31    0.1049E-04
  3040.64    0.1057E-04
  3042.96    0.1064E-04
  3045.29    0.1072E-04
  3047.61    0.1080E-04
  3049.94    0.1087E-04
  3052.26    0.1095E-04
  3054.59    0.1103E-04
  3056.91    0.1111E-04
  3059.24    0.1119E-04
  3061.57    0.1128E-04
  3063.89    0.1136E-04
  3066.22    0.1144E-04
  3068.54    0.1153E-04
  3070.87    0.1161E-04
  3073.19    0.1170E-04
  3075.52    0.1179E-04
  3077.84    0.1188E-04
  3080.17    0.1197E-04
  3082.49    0.1206E-04
  3084.82    0.1215E-04
  3087.15    0.1224E-04
  3089.47    0.1234E-04
  3091.80    0.1243E-04
  3094.12    0.1253E-04
  3096.45    0.1263E-04
  3098.77    0.1273E-04
  3101.10    0.1283E-04
  3103.42    0.1293E-04
  3105.75    0.1303E-04
  3108.07    0.1314E-04
  3110.40    0.1324E-04
  3112.73    0.1335E-04
  3115.05    0.1345E-04
  3117.38    0.1356E-04
  3119.70    0.1367E-04
  3122.03    0.1379E-04
  3124.35    0.1390E-04
  3126.68    0.1401E-04
  3129.00    0.1413E-04
  3131.33    0.1425E-04
  3133.65    0.1437E-04
  3135.98    0.1449E-04
  3138.31    0.1461E-04
  3140.63    0.1473E-04
  3142.96    0.1486E-04
  3145.28    0.1498E-04
  3147.61    0.1511E-04
  3149.93    0.1524E-04
  3152.26    0.1537E-04
  3154.58    0.1551E-04
  3156.91    0.1564E-04
  3159.24    0.1578E-04
  3161.56    0.1592E-04
  3163.89    0.1606E-04
  3166.21    0.1620E-04
  3168.54    0.1635E-04
  3170.86    0.1649E-04
  3173.19    0.1664E-04
  3175.51    0.1679E-04
  3177.84    0.1695E-04
  3180.16    0.1710E-04
  3182.49    0.1726E-04
  3184.82    0.1742E-04
  3187.14    0.1758E-04
  3189.47    0.1774E-04
  3191.79    0.1791E-04
  3194.12    0.1808E-04
  3196.44    0.1825E-04
  3198.77    0.1842E-04
  3201.09    0.1860E-04
  3203.42    0.1878E-04
  3205.74    0.1896E-04
  3208.07    0.1914E-04
  3210.40    0.1933E-04
  3212.72    0.1952E-04
  3215.05    0.1971E-04
  3217.37    0.1990E-04
  3219.70    0.2010E-04
  3222.02    0.2030E-04
  3224.35    0.2051E-04
  3226.67    0.2071E-04
  3229.00    0.2092E-04
  3231.32    0.2114E-04
  3233.65    0.2135E-04
  3235.98    0.2157E-04
  3238.30    0.2180E-04
  3240.63    0.2202E-04
  3242.95    0.2225E-04
  3245.28    0.2249E-04
  3247.60    0.2273E-04
  3249.93    0.2297E-04
  3252.25    0.2321E-04
  3254.58    0.2346E-04
  3256.91    0.2372E-04
  3259.23    0.2398E-04
  3261.56    0.2424E-04
  3263.88    0.2451E-04
  3266.21    0.2478E-04
  3268.53    0.2505E-04
  3270.86    0.2533E-04
  3273.18    0.2562E-04
  3275.51    0.2591E-04
  3277.83    0.2621E-04
  3280.16    0.2651E-04
  3282.49    0.2681E-04
  3284.81    0.2712E-04
  3287.14    0.2744E-04
  3289.46    0.2776E-04
  3291.79    0.2809E-04
  3294.11    0.2842E-04
  3296.44    0.2876E-04
  3298.76    0.2911E-04
  3301.09    0.2946E-04
  3303.41    0.2982E-04
  3305.74    0.3019E-04
  3308.07    0.3056E-04
  3310.39    0.3094E-04
  3312.72    0.3133E-04
  3315.04    0.3172E-04
  3317.37    0.3212E-04
  3319.69    0.3253E-04
  3322.02    0.3295E-04
  3324.34    0.3337E-04
  3326.67    0.3381E-04
  3329.00    0.3425E-04
  3331.32    0.3470E-04
  3333.65    0.3516E-04
  3335.97    0.3563E-04
  3338.30    0.3611E-04
  3340.62    0.3660E-04
  3342.95    0.3710E-04
  3345.27    0.3761E-04
  3347.60    0.3813E-04
  3349.92    0.3866E-04
  3352.25    0.3920E-04
  3354.58    0.3975E-04
  3356.90    0.4032E-04
  3359.23    0.4090E-04
  3361.55    0.4149E-04
  3363.88    0.4209E-04
  3366.20    0.4271E-04
  3368.53    0.4334E-04
  3370.85    0.4399E-04
  3373.18    0.4465E-04
  3375.50    0.4532E-04
  3377.83    0.4601E-04
  3380.16    0.4672E-04
  3382.48    0.4744E-04
  3384.81    0.4818E-04
  3387.13    0.4894E-04
  3389.46    0.4971E-04
  3391.78    0.5051E-04
  3394.11    0.5132E-04
  3396.43    0.5216E-04
  3398.76    0.5301E-04
  3401.08    0.5389E-04
  3403.41    0.5479E-04
  3405.74    0.5571E-04
  3408.06    0.5665E-04
  3410.39    0.5762E-04
  3412.71    0.5862E-04
  3415.04    0.5964E-04
  3417.36    0.6069E-04
  3419.69    0.6176E-04
  3422.01    0.6287E-04
  3424.34    0.6401E-04
  3426.67    0.6517E-04
  3428.99    0.6637E-04
  3431.32    0.6761E-04
  3433.64    0.6888E-04
  3435.97    0.7018E-04
  3438.29    0.7152E-04
  3440.62    0.7291E-04
  3442.94    0.7433E-04
  3445.27    0.7580E-04
  3447.59    0.7731E-04
  3449.92    0.7886E-04
  3452.25    0.8047E-04
  3454.57    0.8212E-04
  3456.90    0.8383E-04
  3459.22    0.8559E-04
  3461.55    0.8740E-04
  3463.87    0.8928E-04
  3466.20    0.9122E-04
  3468.52    0.9322E-04
  3470.85    0.9529E-04
  3473.17    0.9743E-04
  3475.50    0.9964E-04
  3477.83    0.1019E-03
  3480.15    0.1043E-03
  3482.48    0.1068E-03
  3484.80    0.1093E-03
  3487.13    0.1119E-03
  3489.45    0.1147E-03
  3491.78    0.1175E-03
  3494.10    0.1205E-03
  3496.43    0.1235E-03
  3498.75    0.1267E-03
  3501.08    0.1300E-03
  3503.41    0.1335E-03
  3505.73    0.1370E-03
  3508.06    0.1408E-03
  3510.38    0.1447E-03
  3512.71    0.1487E-03
  3515.03    0.1529E-03
  3517.36    0.1573E-03
  3519.68    0.1619E-03
  3522.01    0.1667E-03
  3524.34    0.1718E-03
  3526.66    0.1770E-03
  3528.99    0.1826E-03
  3531.31    0.1883E-03
  3533.64    0.1944E-03
  3535.96    0.2008E-03
  3538.29    0.2074E-03
  3540.61    0.2145E-03
  3542.94    0.2219E-03
  3545.26    0.2297E-03
  3547.59    0.2379E-03
  3549.92    0.2465E-03
  3552.24    0.2557E-03
  3554.57    0.2654E-03
  3556.89    0.2756E-03
  3559.22    0.2865E-03
  3561.54    0.2980E-03
  3563.87    0.3102E-03
  3566.19    0.3232E-03
  3568.52    0.3371E-03
  3570.84    0.3519E-03
  3573.17    0.3677E-03
  3575.50    0.3846E-03
  3577.82    0.4027E-03
  3580.15    0.4221E-03
  3582.47    0.4430E-03
  3584.80    0.4655E-03
  3587.12    0.4898E-03
  3589.45    0.5160E-03
  3591.77    0.5444E-03
  3594.10    0.5752E-03
  3596.42    0.6088E-03
  3598.75    0.6455E-03
  3601.08    0.6855E-03
  3603.40    0.7295E-03
  3605.73    0.7778E-03
  3608.05    0.8311E-03
  3610.38    0.8902E-03
  3612.70    0.9558E-03
  3615.03    0.1029E-02
  3617.35    0.1111E-02
  3619.68    0.1203E-02
  3622.01    0.1307E-02
  3624.33    0.1425E-02
  3626.66    0.1560E-02
  3628.98    0.1715E-02
  3631.31    0.1894E-02
  3633.63    0.2102E-02
  3635.96    0.2346E-02
  3638.28    0.2634E-02
  3640.61    0.2978E-02
  3642.93    0.3392E-02
  3645.26    0.3895E-02
  3647.59    0.4514E-02
  3649.91    0.5285E-02
  3652.24    0.6257E-02
  3654.56    0.7500E-02
  3656.89    0.9109E-02
  3659.21    0.1121E-01
  3661.54    0.1398E-01
  3663.86    0.1759E-01
  3666.19    0.2214E-01
  3668.51    0.2742E-01
  3670.84    0.3250E-01
  3673.17    0.3563E-01
  3675.49    0.3525E-01
  3677.82    0.3158E-01
  3680.14    0.2634E-01
  3682.47    0.2116E-01
  3684.79    0.1681E-01
  3687.12    0.1339E-01
  3689.44    0.1078E-01
  3691.77    0.8794E-02
  3694.10    0.7275E-02
  3696.42    0.6100E-02
  3698.75    0.5181E-02
  3701.07    0.4452E-02
  3703.40    0.3867E-02
  3705.72    0.3392E-02
  3708.05    0.3004E-02
  3710.37    0.2682E-02
  3712.70    0.2414E-02
  3715.02    0.2190E-02
  3717.35    0.2001E-02
  3719.68    0.1841E-02
  3722.00    0.1705E-02
  3724.33    0.1591E-02
  3726.65    0.1494E-02
  3728.98    0.1413E-02
  3731.30    0.1346E-02
  3733.63    0.1292E-02
  3735.95    0.1250E-02
  3738.28    0.1219E-02
  3740.60    0.1200E-02
  3742.93    0.1192E-02
  3745.26    0.1196E-02
  3747.58    0.1213E-02
  3749.91    0.1244E-02
  3752.23    0.1293E-02
  3754.56    0.1362E-02
  3756.88    0.1457E-02
  3759.21    0.1582E-02
  3761.53    0.1748E-02
  3763.86    0.1966E-02
  3766.18    0.2254E-02
  3768.51    0.2637E-02
  3770.84    0.3145E-02
  3773.16    0.3820E-02
  3775.49    0.4703E-02
  3777.81    0.5810E-02
  3780.14    0.7064E-02
  3782.46    0.8201E-02
  3784.79    0.8784E-02
  3787.11    0.8505E-02
  3789.44    0.7509E-02
  3791.77    0.6234E-02
  3794.09    0.5026E-02
  3796.42    0.4027E-02
  3798.74    0.3248E-02
  3801.07    0.2652E-02
  3803.39    0.2197E-02
  3805.72    0.1846E-02
  3808.04    0.1573E-02
  3810.37    0.1357E-02
  3812.69    0.1184E-02
  3815.02    0.1043E-02
  3817.35    0.9273E-03
  3819.67    0.8311E-03
  3822.00    0.7502E-03
  3824.32    0.6816E-03
  3826.65    0.6229E-03
  3828.97    0.5721E-03
  3831.30    0.5280E-03
  3833.62    0.4893E-03
  3835.95    0.4552E-03
  3838.27    0.4250E-03
  3840.60    0.3980E-03
  3842.93    0.3739E-03
  3845.25    0.3521E-03
  3847.58    0.3325E-03
