
 ------------------------------------------------------------
     normal          Raman Scattering Plot
 ------------------------------------------------------------
 Excitation wavelength  631.48 nm
 Convolution lineshape is lorentzian  
 FWHM   20.00  1/cm
 ------------------------------------------------------------
 ------------------------------------------------------------
 # of frequencies :     3
 ------------------------------------------------------------
 #  freq [ 1/cm]  S [Ang**4/amu]
 ------------------------------------------------------------
   3  1021.00       76.1093
 ------------------------------------------------------------
   -58.86    0.5766E-05
   -57.72    0.5778E-05
   -56.57    0.5790E-05
   -55.43    0.5802E-05
   -54.29    0.5815E-05
   -53.15    0.5827E-05
   -52.01    0.5840E-05
   -50.86    0.5852E-05
   -49.72    0.5864E-05
   -48.58    0.5877E-05
   -47.44    0.5890E-05
   -46.29    0.5902E-05
   -45.15    0.5915E-05
   -44.01    0.5928E-05
   -42.87    0.5940E-05
   -41.73    0.5953E-05
   -40.58    0.5966E-05
   -39.44    0.5979E-05
   -38.30    0.5992E-05
   -37.16    0.6005E-05
   -36.02    0.6018E-05
   -34.87    0.6031E-05
   -33.73    0.6044E-05
   -32.59    0.6057E-05
   -31.45    0.6070E-05
   -30.30    0.6083E-05
   -29.16    0.6096E-05
   -28.02    0.6110E-05
   -26.88    0.6123E-05
   -25.74    0.6136E-05
   -24.59    0.6150E-05
   -23.45    0.6163E-05
   -22.31    0.6177E-05
   -21.17    0.6190E-05
   -20.03    0.6204E-05
   -18.88    0.6217E-05
   -17.74    0.6231E-05
   -16.60    0.6245E-05
   -15.46    0.6259E-05
   -14.31    0.6272E-05
   -13.17    0.6286E-05
   -12.03    0.6300E-05
   -10.89    0.6314E-05
    -9.75    0.6328E-05
    -8.60    0.6342E-05
    -7.46    0.6356E-05
    -6.32    0.6370E-05
    -5.18    0.6385E-05
    -4.04    0.6399E-05
    -2.89    0.6413E-05
    -1.75    0.6427E-05
    -0.61    0.6442E-05
     0.53    0.6456E-05
     1.68    0.6471E-05
     2.82    0.6485E-05
     3.96    0.6500E-05
     5.10    0.6514E-05
     6.24    0.6529E-05
     7.39    0.6544E-05
     8.53    0.6559E-05
     9.67    0.6573E-05
    10.81    0.6588E-05
    11.95    0.6603E-05
    13.10    0.6618E-05
    14.24    0.6633E-05
    15.38    0.6648E-05
    16.52    0.6663E-05
    17.67    0.6679E-05
    18.81    0.6694E-05
    19.95    0.6709E-05
    21.09    0.6724E-05
    22.23    0.6740E-05
    23.38    0.6755E-05
    24.52    0.6771E-05
    25.66    0.6786E-05
    26.80    0.6802E-05
    27.94    0.6818E-05
    29.09    0.6833E-05
    30.23    0.6849E-05
    31.37    0.6865E-05
    32.51    0.6881E-05
    33.66    0.6897E-05
    34.80    0.6913E-05
    35.94    0.6929E-05
    37.08    0.6945E-05
    38.22    0.6961E-05
    39.37    0.6977E-05
    40.51    0.6993E-05
    41.65    0.7010E-05
    42.79    0.7026E-05
    43.93    0.7043E-05
    45.08    0.7059E-05
    46.22    0.7076E-05
    47.36    0.7092E-05
    48.50    0.7109E-05
    49.65    0.7126E-05
    50.79    0.7142E-05
    51.93    0.7159E-05
    53.07    0.7176E-05
    54.21    0.7193E-05
    55.36    0.7210E-05
    56.50    0.7227E-05
    57.64    0.7244E-05
    58.78    0.7262E-05
    59.92    0.7279E-05
    61.07    0.7296E-05
    62.21    0.7313E-05
    63.35    0.7331E-05
    64.49    0.7348E-05
    65.64    0.7366E-05
    66.78    0.7384E-05
    67.92    0.7401E-05
    69.06    0.7419E-05
    70.20    0.7437E-05
    71.35    0.7455E-05
    72.49    0.7473E-05
    73.63    0.7491E-05
    74.77    0.7509E-05
    75.91    0.7527E-05
    77.06    0.7545E-05
    78.20    0.7564E-05
    79.34    0.7582E-05
    80.48    0.7600E-05
    81.63    0.7619E-05
    82.77    0.7637E-05
    83.91    0.7656E-05
    85.05    0.7675E-05
    86.19    0.7694E-05
    87.34    0.7712E-05
    88.48    0.7731E-05
    89.62    0.7750E-05
    90.76    0.7769E-05
    91.90    0.7788E-05
    93.05    0.7808E-05
    94.19    0.7827E-05
    95.33    0.7846E-05
    96.47    0.7866E-05
    97.62    0.7885E-05
    98.76    0.7905E-05
    99.90    0.7924E-05
   101.04    0.7944E-05
   102.18    0.7964E-05
   103.33    0.7983E-05
   104.47    0.8003E-05
   105.61    0.8023E-05
   106.75    0.8043E-05
   107.89    0.8064E-05
   109.04    0.8084E-05
   110.18    0.8104E-05
   111.32    0.8124E-05
   112.46    0.8145E-05
   113.61    0.8165E-05
   114.75    0.8186E-05
   115.89    0.8207E-05
   117.03    0.8227E-05
   118.17    0.8248E-05
   119.32    0.8269E-05
   120.46    0.8290E-05
   121.60    0.8311E-05
   122.74    0.8332E-05
   123.88    0.8354E-05
   125.03    0.8375E-05
   126.17    0.8396E-05
   127.31    0.8418E-05
   128.45    0.8439E-05
   129.60    0.8461E-05
   130.74    0.8483E-05
   131.88    0.8504E-05
   133.02    0.8526E-05
   134.16    0.8548E-05
   135.31    0.8570E-05
   136.45    0.8592E-05
   137.59    0.8615E-05
   138.73    0.8637E-05
   139.87    0.8659E-05
   141.02    0.8682E-05
   142.16    0.8704E-05
   143.30    0.8727E-05
   144.44    0.8750E-05
   145.59    0.8773E-05
   146.73    0.8796E-05
   147.87    0.8819E-05
   149.01    0.8842E-05
   150.15    0.8865E-05
   151.30    0.8888E-05
   152.44    0.8912E-05
   153.58    0.8935E-05
   154.72    0.8959E-05
   155.86    0.8982E-05
   157.01    0.9006E-05
   158.15    0.9030E-05
   159.29    0.9054E-05
   160.43    0.9078E-05
   161.58    0.9102E-05
   162.72    0.9126E-05
   163.86    0.9151E-05
   165.00    0.9175E-05
   166.14    0.9200E-05
   167.29    0.9224E-05
   168.43    0.9249E-05
   169.57    0.9274E-05
   170.71    0.9299E-05
   171.85    0.9324E-05
   173.00    0.9349E-05
   174.14    0.9374E-05
   175.28    0.9400E-05
   176.42    0.9425E-05
   177.57    0.9451E-05
   178.71    0.9476E-05
   179.85    0.9502E-05
   180.99    0.9528E-05
   182.13    0.9554E-05
   183.28    0.9580E-05
   184.42    0.9606E-05
   185.56    0.9632E-05
   186.70    0.9659E-05
   187.84    0.9685E-05
   188.99    0.9712E-05
   190.13    0.9738E-05
   191.27    0.9765E-05
   192.41    0.9792E-05
   193.56    0.9819E-05
   194.70    0.9846E-05
   195.84    0.9874E-05
   196.98    0.9901E-05
   198.12    0.9929E-05
   199.27    0.9956E-05
   200.41    0.9984E-05
   201.55    0.1001E-04
   202.69    0.1004E-04
   203.83    0.1007E-04
   204.98    0.1010E-04
   206.12    0.1012E-04
   207.26    0.1015E-04
   208.40    0.1018E-04
   209.55    0.1021E-04
   210.69    0.1024E-04
   211.83    0.1027E-04
   212.97    0.1030E-04
   214.11    0.1033E-04
   215.26    0.1036E-04
   216.40    0.1038E-04
   217.54    0.1041E-04
   218.68    0.1044E-04
   219.82    0.1047E-04
   220.97    0.1050E-04
   222.11    0.1053E-04
   223.25    0.1056E-04
   224.39    0.1059E-04
   225.54    0.1062E-04
   226.68    0.1066E-04
   227.82    0.1069E-04
   228.96    0.1072E-04
   230.10    0.1075E-04
   231.25    0.1078E-04
   232.39    0.1081E-04
   233.53    0.1084E-04
   234.67    0.1087E-04
   235.81    0.1090E-04
   236.96    0.1094E-04
   238.10    0.1097E-04
   239.24    0.1100E-04
   240.38    0.1103E-04
   241.53    0.1106E-04
   242.67    0.1110E-04
   243.81    0.1113E-04
   244.95    0.1116E-04
   246.09    0.1120E-04
   247.24    0.1123E-04
   248.38    0.1126E-04
   249.52    0.1130E-04
   250.66    0.1133E-04
   251.80    0.1136E-04
   252.95    0.1140E-04
   254.09    0.1143E-04
   255.23    0.1146E-04
   256.37    0.1150E-04
   257.52    0.1153E-04
   258.66    0.1157E-04
   259.80    0.1160E-04
   260.94    0.1164E-04
   262.08    0.1167E-04
   263.23    0.1171E-04
   264.37    0.1174E-04
   265.51    0.1178E-04
   266.65    0.1181E-04
   267.79    0.1185E-04
   268.94    0.1189E-04
   270.08    0.1192E-04
   271.22    0.1196E-04
   272.36    0.1199E-04
   273.50    0.1203E-04
   274.65    0.1207E-04
   275.79    0.1211E-04
   276.93    0.1214E-04
   278.07    0.1218E-04
   279.22    0.1222E-04
   280.36    0.1226E-04
   281.50    0.1229E-04
   282.64    0.1233E-04
   283.78    0.1237E-04
   284.93    0.1241E-04
   286.07    0.1245E-04
   287.21    0.1249E-04
   288.35    0.1252E-04
   289.49    0.1256E-04
   290.64    0.1260E-04
   291.78    0.1264E-04
   292.92    0.1268E-04
   294.06    0.1272E-04
   295.21    0.1276E-04
   296.35    0.1280E-04
   297.49    0.1284E-04
   298.63    0.1288E-04
   299.77    0.1292E-04
   300.92    0.1296E-04
   302.06    0.1301E-04
   303.20    0.1305E-04
   304.34    0.1309E-04
   305.48    0.1313E-04
   306.63    0.1317E-04
   307.77    0.1322E-04
   308.91    0.1326E-04
   310.05    0.1330E-04
   311.20    0.1334E-04
   312.34    0.1339E-04
   313.48    0.1343E-04
   314.62    0.1347E-04
   315.76    0.1352E-04
   316.91    0.1356E-04
   318.05    0.1360E-04
   319.19    0.1365E-04
   320.33    0.1369E-04
   321.47    0.1374E-04
   322.62    0.1378E-04
   323.76    0.1383E-04
   324.90    0.1387E-04
   326.04    0.1392E-04
   327.19    0.1397E-04
   328.33    0.1401E-04
   329.47    0.1406E-04
   330.61    0.1410E-04
   331.75    0.1415E-04
   332.90    0.1420E-04
   334.04    0.1425E-04
   335.18    0.1429E-04
   336.32    0.1434E-04
   337.46    0.1439E-04
   338.61    0.1444E-04
   339.75    0.1448E-04
   340.89    0.1453E-04
   342.03    0.1458E-04
   343.18    0.1463E-04
   344.32    0.1468E-04
   345.46    0.1473E-04
   346.60    0.1478E-04
   347.74    0.1483E-04
   348.89    0.1488E-04
   350.03    0.1493E-04
   351.17    0.1498E-04
   352.31    0.1503E-04
   353.45    0.1509E-04
   354.60    0.1514E-04
   355.74    0.1519E-04
   356.88    0.1524E-04
   358.02    0.1529E-04
   359.17    0.1535E-04
   360.31    0.1540E-04
   361.45    0.1545E-04
   362.59    0.1551E-04
   363.73    0.1556E-04
   364.88    0.1562E-04
   366.02    0.1567E-04
   367.16    0.1572E-04
   368.30    0.1578E-04
   369.44    0.1583E-04
   370.59    0.1589E-04
   371.73    0.1595E-04
   372.87    0.1600E-04
   374.01    0.1606E-04
   375.16    0.1612E-04
   376.30    0.1617E-04
   377.44    0.1623E-04
   378.58    0.1629E-04
   379.72    0.1635E-04
   380.87    0.1640E-04
   382.01    0.1646E-04
   383.15    0.1652E-04
   384.29    0.1658E-04
   385.43    0.1664E-04
   386.58    0.1670E-04
   387.72    0.1676E-04
   388.86    0.1682E-04
   390.00    0.1688E-04
   391.15    0.1694E-04
   392.29    0.1701E-04
   393.43    0.1707E-04
   394.57    0.1713E-04
   395.71    0.1719E-04
   396.86    0.1726E-04
   398.00    0.1732E-04
   399.14    0.1738E-04
   400.28    0.1745E-04
   401.42    0.1751E-04
   402.57    0.1758E-04
   403.71    0.1764E-04
   404.85    0.1771E-04
   405.99    0.1777E-04
   407.14    0.1784E-04
   408.28    0.1791E-04
   409.42    0.1797E-04
   410.56    0.1804E-04
   411.70    0.1811E-04
   412.85    0.1818E-04
   413.99    0.1824E-04
   415.13    0.1831E-04
   416.27    0.1838E-04
   417.41    0.1845E-04
   418.56    0.1852E-04
   419.70    0.1859E-04
   420.84    0.1866E-04
   421.98    0.1873E-04
   423.13    0.1881E-04
   424.27    0.1888E-04
   425.41    0.1895E-04
   426.55    0.1902E-04
   427.69    0.1910E-04
   428.84    0.1917E-04
   429.98    0.1924E-04
   431.12    0.1932E-04
   432.26    0.1939E-04
   433.40    0.1947E-04
   434.55    0.1954E-04
   435.69    0.1962E-04
   436.83    0.1970E-04
   437.97    0.1977E-04
   439.12    0.1985E-04
   440.26    0.1993E-04
   441.40    0.2001E-04
   442.54    0.2009E-04
   443.68    0.2017E-04
   444.83    0.2025E-04
   445.97    0.2033E-04
   447.11    0.2041E-04
   448.25    0.2049E-04
   449.39    0.2057E-04
   450.54    0.2066E-04
   451.68    0.2074E-04
   452.82    0.2082E-04
   453.96    0.2091E-04
   455.11    0.2099E-04
   456.25    0.2108E-04
   457.39    0.2116E-04
   458.53    0.2125E-04
   459.67    0.2133E-04
   460.82    0.2142E-04
   461.96    0.2151E-04
   463.10    0.2160E-04
   464.24    0.2168E-04
   465.38    0.2177E-04
   466.53    0.2186E-04
   467.67    0.2195E-04
   468.81    0.2204E-04
   469.95    0.2214E-04
   471.10    0.2223E-04
   472.24    0.2232E-04
   473.38    0.2241E-04
   474.52    0.2251E-04
   475.66    0.2260E-04
   476.81    0.2270E-04
   477.95    0.2279E-04
   479.09    0.2289E-04
   480.23    0.2299E-04
   481.37    0.2308E-04
   482.52    0.2318E-04
   483.66    0.2328E-04
   484.80    0.2338E-04
   485.94    0.2348E-04
   487.09    0.2358E-04
   488.23    0.2368E-04
   489.37    0.2378E-04
   490.51    0.2388E-04
   491.65    0.2399E-04
   492.80    0.2409E-04
   493.94    0.2420E-04
   495.08    0.2430E-04
   496.22    0.2441E-04
   497.36    0.2451E-04
   498.51    0.2462E-04
   499.65    0.2473E-04
   500.79    0.2484E-04
   501.93    0.2495E-04
   503.08    0.2506E-04
   504.22    0.2517E-04
   505.36    0.2528E-04
   506.50    0.2539E-04
   507.64    0.2550E-04
   508.79    0.2562E-04
   509.93    0.2573E-04
   511.07    0.2585E-04
   512.21    0.2596E-04
   513.35    0.2608E-04
   514.50    0.2620E-04
   515.64    0.2632E-04
   516.78    0.2644E-04
   517.92    0.2656E-04
   519.07    0.2668E-04
   520.21    0.2680E-04
   521.35    0.2692E-04
   522.49    0.2705E-04
   523.63    0.2717E-04
   524.78    0.2730E-04
   525.92    0.2742E-04
   527.06    0.2755E-04
   528.20    0.2768E-04
   529.34    0.2780E-04
   530.49    0.2793E-04
   531.63    0.2806E-04
   532.77    0.2820E-04
   533.91    0.2833E-04
   535.06    0.2846E-04
   536.20    0.2860E-04
   537.34    0.2873E-04
   538.48    0.2887E-04
   539.62    0.2900E-04
   540.77    0.2914E-04
   541.91    0.2928E-04
   543.05    0.2942E-04
   544.19    0.2956E-04
   545.33    0.2970E-04
   546.48    0.2985E-04
   547.62    0.2999E-04
   548.76    0.3014E-04
   549.90    0.3028E-04
   551.05    0.3043E-04
   552.19    0.3058E-04
   553.33    0.3073E-04
   554.47    0.3088E-04
   555.61    0.3103E-04
   556.76    0.3118E-04
   557.90    0.3134E-04
   559.04    0.3149E-04
   560.18    0.3165E-04
   561.32    0.3181E-04
   562.47    0.3196E-04
   563.61    0.3212E-04
   564.75    0.3229E-04
   565.89    0.3245E-04
   567.04    0.3261E-04
   568.18    0.3278E-04
   569.32    0.3294E-04
   570.46    0.3311E-04
   571.60    0.3328E-04
   572.75    0.3345E-04
   573.89    0.3362E-04
   575.03    0.3379E-04
   576.17    0.3396E-04
   577.31    0.3414E-04
   578.46    0.3432E-04
   579.60    0.3449E-04
   580.74    0.3467E-04
   581.88    0.3485E-04
   583.03    0.3503E-04
   584.17    0.3522E-04
   585.31    0.3540E-04
   586.45    0.3559E-04
   587.59    0.3578E-04
   588.74    0.3597E-04
   589.88    0.3616E-04
   591.02    0.3635E-04
   592.16    0.3654E-04
   593.30    0.3674E-04
   594.45    0.3693E-04
   595.59    0.3713E-04
   596.73    0.3733E-04
   597.87    0.3754E-04
   599.01    0.3774E-04
   600.16    0.3794E-04
   601.30    0.3815E-04
   602.44    0.3836E-04
   603.58    0.3857E-04
   604.73    0.3878E-04
   605.87    0.3899E-04
   607.01    0.3921E-04
   608.15    0.3943E-04
   609.29    0.3965E-04
   610.44    0.3987E-04
   611.58    0.4009E-04
   612.72    0.4031E-04
   613.86    0.4054E-04
   615.00    0.4077E-04
   616.15    0.4100E-04
   617.29    0.4123E-04
   618.43    0.4146E-04
   619.57    0.4170E-04
   620.72    0.4194E-04
   621.86    0.4218E-04
   623.00    0.4242E-04
   624.14    0.4267E-04
   625.28    0.4291E-04
   626.43    0.4316E-04
   627.57    0.4341E-04
   628.71    0.4366E-04
   629.85    0.4392E-04
   630.99    0.4418E-04
   632.14    0.4444E-04
   633.28    0.4470E-04
   634.42    0.4496E-04
   635.56    0.4523E-04
   636.71    0.4550E-04
   637.85    0.4577E-04
   638.99    0.4604E-04
   640.13    0.4632E-04
   641.27    0.4660E-04
   642.42    0.4688E-04
   643.56    0.4716E-04
   644.70    0.4745E-04
   645.84    0.4774E-04
   646.98    0.4803E-04
   648.13    0.4833E-04
   649.27    0.4862E-04
   650.41    0.4892E-04
   651.55    0.4923E-04
   652.70    0.4953E-04
   653.84    0.4984E-04
   654.98    0.5015E-04
   656.12    0.5047E-04
   657.26    0.5078E-04
   658.41    0.5110E-04
   659.55    0.5143E-04
   660.69    0.5175E-04
   661.83    0.5208E-04
   662.97    0.5242E-04
   664.12    0.5275E-04
   665.26    0.5309E-04
   666.40    0.5343E-04
   667.54    0.5378E-04
   668.69    0.5413E-04
   669.83    0.5448E-04
   670.97    0.5483E-04
   672.11    0.5519E-04
   673.25    0.5556E-04
   674.40    0.5592E-04
   675.54    0.5629E-04
   676.68    0.5667E-04
   677.82    0.5704E-04
   678.96    0.5743E-04
   680.11    0.5781E-04
   681.25    0.5820E-04
   682.39    0.5859E-04
   683.53    0.5899E-04
   684.68    0.5939E-04
   685.82    0.5980E-04
   686.96    0.6021E-04
   688.10    0.6062E-04
   689.24    0.6104E-04
   690.39    0.6146E-04
   691.53    0.6189E-04
   692.67    0.6232E-04
   693.81    0.6275E-04
   694.95    0.6319E-04
   696.10    0.6364E-04
   697.24    0.6409E-04
   698.38    0.6454E-04
   699.52    0.6500E-04
   700.67    0.6546E-04
   701.81    0.6593E-04
   702.95    0.6641E-04
   704.09    0.6688E-04
   705.23    0.6737E-04
   706.38    0.6786E-04
   707.52    0.6835E-04
   708.66    0.6885E-04
   709.80    0.6936E-04
   710.94    0.6987E-04
   712.09    0.7039E-04
   713.23    0.7091E-04
   714.37    0.7144E-04
   715.51    0.7197E-04
   716.66    0.7251E-04
   717.80    0.7306E-04
   718.94    0.7361E-04
   720.08    0.7417E-04
   721.22    0.7474E-04
   722.37    0.7531E-04
   723.51    0.7589E-04
   724.65    0.7648E-04
   725.79    0.7707E-04
   726.93    0.7767E-04
   728.08    0.7827E-04
   729.22    0.7889E-04
   730.36    0.7951E-04
   731.50    0.8013E-04
   732.65    0.8077E-04
   733.79    0.8141E-04
   734.93    0.8206E-04
   736.07    0.8272E-04
   737.21    0.8339E-04
   738.36    0.8406E-04
   739.50    0.8474E-04
   740.64    0.8544E-04
   741.78    0.8614E-04
   742.92    0.8684E-04
   744.07    0.8756E-04
   745.21    0.8829E-04
   746.35    0.8902E-04
   747.49    0.8977E-04
   748.64    0.9052E-04
   749.78    0.9128E-04
   750.92    0.9205E-04
   752.06    0.9284E-04
   753.20    0.9363E-04
   754.35    0.9443E-04
   755.49    0.9524E-04
   756.63    0.9607E-04
   757.77    0.9690E-04
   758.91    0.9775E-04
   760.06    0.9860E-04
   761.20    0.9947E-04
   762.34    0.1004E-03
   763.48    0.1012E-03
   764.63    0.1021E-03
   765.77    0.1031E-03
   766.91    0.1040E-03
   768.05    0.1049E-03
   769.19    0.1059E-03
   770.34    0.1068E-03
   771.48    0.1078E-03
   772.62    0.1088E-03
   773.76    0.1098E-03
   774.90    0.1108E-03
   776.05    0.1119E-03
   777.19    0.1129E-03
   778.33    0.1140E-03
   779.47    0.1151E-03
   780.62    0.1162E-03
   781.76    0.1173E-03
   782.90    0.1184E-03
   784.04    0.1195E-03
   785.18    0.1207E-03
   786.33    0.1219E-03
   787.47    0.1231E-03
   788.61    0.1243E-03
   789.75    0.1255E-03
   790.89    0.1268E-03
   792.04    0.1280E-03
   793.18    0.1293E-03
   794.32    0.1306E-03
   795.46    0.1319E-03
   796.61    0.1333E-03
   797.75    0.1346E-03
   798.89    0.1360E-03
   800.03    0.1374E-03
   801.17    0.1389E-03
   802.32    0.1403E-03
   803.46    0.1418E-03
   804.60    0.1433E-03
   805.74    0.1448E-03
   806.88    0.1463E-03
   808.03    0.1479E-03
   809.17    0.1495E-03
   810.31    0.1511E-03
   811.45    0.1528E-03
   812.60    0.1545E-03
   813.74    0.1562E-03
   814.88    0.1579E-03
   816.02    0.1597E-03
   817.16    0.1614E-03
   818.31    0.1633E-03
   819.45    0.1651E-03
   820.59    0.1670E-03
   821.73    0.1689E-03
   822.87    0.1709E-03
   824.02    0.1728E-03
   825.16    0.1749E-03
   826.30    0.1769E-03
   827.44    0.1790E-03
   828.59    0.1811E-03
   829.73    0.1833E-03
   830.87    0.1855E-03
   832.01    0.1877E-03
   833.15    0.1900E-03
   834.30    0.1923E-03
   835.44    0.1947E-03
   836.58    0.1971E-03
   837.72    0.1996E-03
   838.86    0.2021E-03
   840.01    0.2046E-03
   841.15    0.2072E-03
   842.29    0.2099E-03
   843.43    0.2126E-03
   844.58    0.2153E-03
   845.72    0.2181E-03
   846.86    0.2210E-03
   848.00    0.2239E-03
   849.14    0.2269E-03
   850.29    0.2299E-03
   851.43    0.2330E-03
   852.57    0.2362E-03
   853.71    0.2394E-03
   854.85    0.2427E-03
   856.00    0.2461E-03
   857.14    0.2495E-03
   858.28    0.2530E-03
   859.42    0.2566E-03
   860.57    0.2602E-03
   861.71    0.2640E-03
   862.85    0.2678E-03
   863.99    0.2717E-03
   865.13    0.2756E-03
   866.28    0.2797E-03
   867.42    0.2839E-03
   868.56    0.2881E-03
   869.70    0.2925E-03
   870.84    0.2969E-03
   871.99    0.3015E-03
   873.13    0.3061E-03
   874.27    0.3109E-03
   875.41    0.3157E-03
   876.56    0.3207E-03
   877.70    0.3258E-03
   878.84    0.3311E-03
   879.98    0.3364E-03
   881.12    0.3419E-03
   882.27    0.3475E-03
   883.41    0.3533E-03
   884.55    0.3592E-03
   885.69    0.3653E-03
   886.83    0.3715E-03
   887.98    0.3779E-03
   889.12    0.3844E-03
   890.26    0.3911E-03
   891.40    0.3980E-03
   892.55    0.4050E-03
   893.69    0.4123E-03
   894.83    0.4198E-03
   895.97    0.4274E-03
   897.11    0.4353E-03
   898.26    0.4434E-03
   899.40    0.4517E-03
   900.54    0.4602E-03
   901.68    0.4690E-03
   902.82    0.4781E-03
   903.97    0.4874E-03
   905.11    0.4969E-03
   906.25    0.5068E-03
   907.39    0.5170E-03
   908.54    0.5274E-03
   909.68    0.5382E-03
   910.82    0.5494E-03
   911.96    0.5608E-03
   913.10    0.5727E-03
   914.25    0.5849E-03
   915.39    0.5975E-03
   916.53    0.6105E-03
   917.67    0.6239E-03
   918.81    0.6378E-03
   919.96    0.6522E-03
   921.10    0.6671E-03
   922.24    0.6824E-03
   923.38    0.6983E-03
   924.52    0.7148E-03
   925.67    0.7318E-03
   926.81    0.7495E-03
   927.95    0.7678E-03
   929.09    0.7867E-03
   930.24    0.8064E-03
   931.38    0.8269E-03
   932.52    0.8481E-03
   933.66    0.8701E-03
   934.80    0.8930E-03
   935.95    0.9168E-03
   937.09    0.9416E-03
   938.23    0.9674E-03
   939.37    0.9943E-03
   940.51    0.1022E-02
   941.66    0.1051E-02
   942.80    0.1082E-02
   943.94    0.1114E-02
   945.08    0.1147E-02
   946.23    0.1182E-02
   947.37    0.1218E-02
   948.51    0.1256E-02
   949.65    0.1295E-02
   950.79    0.1337E-02
   951.94    0.1381E-02
   953.08    0.1427E-02
   954.22    0.1475E-02
   955.36    0.1525E-02
   956.50    0.1579E-02
   957.65    0.1635E-02
   958.79    0.1694E-02
   959.93    0.1756E-02
   961.07    0.1822E-02
   962.22    0.1891E-02
   963.36    0.1965E-02
   964.50    0.2042E-02
   965.64    0.2125E-02
   966.78    0.2212E-02
   967.93    0.2305E-02
   969.07    0.2404E-02
   970.21    0.2509E-02
   971.35    0.2622E-02
   972.49    0.2742E-02
   973.64    0.2870E-02
   974.78    0.3007E-02
   975.92    0.3154E-02
   977.06    0.3312E-02
   978.21    0.3482E-02
   979.35    0.3665E-02
   980.49    0.3862E-02
   981.63    0.4076E-02
   982.77    0.4307E-02
   983.92    0.4558E-02
   985.06    0.4832E-02
   986.20    0.5129E-02
   987.34    0.5455E-02
   988.48    0.5811E-02
   989.63    0.6202E-02
   990.77    0.6632E-02
   991.91    0.7107E-02
   993.05    0.7633E-02
   994.20    0.8216E-02
   995.34    0.8865E-02
   996.48    0.9590E-02
   997.62    0.1040E-01
   998.76    0.1131E-01
   999.91    0.1234E-01
  1001.05    0.1350E-01
  1002.19    0.1482E-01
  1003.33    0.1632E-01
  1004.47    0.1803E-01
  1005.62    0.1998E-01
  1006.76    0.2221E-01
  1007.90    0.2476E-01
  1009.04    0.2768E-01
  1010.19    0.3100E-01
  1011.33    0.3475E-01
  1012.47    0.3893E-01
  1013.61    0.4350E-01
  1014.75    0.4838E-01
  1015.90    0.5335E-01
  1017.04    0.5812E-01
  1018.18    0.6229E-01
  1019.32    0.6540E-01
  1020.46    0.6705E-01
  1021.61    0.6699E-01
  1022.75    0.6524E-01
  1023.89    0.6205E-01
  1025.03    0.5782E-01
  1026.18    0.5303E-01
  1027.32    0.4805E-01
  1028.46    0.4319E-01
  1029.60    0.3864E-01
  1030.74    0.3448E-01
  1031.89    0.3077E-01
  1033.03    0.2748E-01
  1034.17    0.2458E-01
  1035.31    0.2205E-01
  1036.45    0.1984E-01
  1037.60    0.1791E-01
  1038.74    0.1621E-01
  1039.88    0.1473E-01
  1041.02    0.1342E-01
  1042.17    0.1227E-01
  1043.31    0.1125E-01
  1044.45    0.1034E-01
  1045.59    0.9539E-02
  1046.73    0.8820E-02
  1047.88    0.8176E-02
  1049.02    0.7597E-02
  1050.16    0.7075E-02
  1051.30    0.6603E-02
  1052.44    0.6175E-02
  1053.59    0.5786E-02
  1054.73    0.5432E-02
  1055.87    0.5109E-02
  1057.01    0.4813E-02
  1058.16    0.4541E-02
  1059.30    0.4291E-02
  1060.44    0.4061E-02
  1061.58    0.3849E-02
  1062.72    0.3652E-02
  1063.87    0.3470E-02
  1065.01    0.3301E-02
  1066.15    0.3144E-02
  1067.29    0.2997E-02
  1068.43    0.2861E-02
  1069.58    0.2733E-02
  1070.72    0.2614E-02
  1071.86    0.2502E-02
  1073.00    0.2398E-02
  1074.15    0.2299E-02
  1075.29    0.2206E-02
  1076.43    0.2119E-02
  1077.57    0.2037E-02
  1078.71    0.1960E-02
  1079.86    0.1886E-02
  1081.00    0.1817E-02
  1082.14    0.1752E-02
