
 ------------------------------------------------------------
     normal          Raman Scattering Plot
 ------------------------------------------------------------
 Excitation wavelength  514.50 nm
 Convolution lineshape is lorentzian  
 FWHM   20.00  1/cm
 ------------------------------------------------------------
 ------------------------------------------------------------
 # of frequencies :     3
 ------------------------------------------------------------
 #  freq [ 1/cm]  S [Ang**4/amu]
 ------------------------------------------------------------
   1  1593.06        0.8360
   2  3680.51      115.8798
   3  3784.84       28.5170
 ------------------------------------------------------------
  1535.37    0.2980E-04
  1537.68    0.3219E-04
  1540.00    0.3488E-04
  1542.31    0.3793E-04
  1544.63    0.4140E-04
  1546.94    0.4538E-04
  1549.26    0.4996E-04
  1551.57    0.5527E-04
  1553.88    0.6148E-04
  1556.20    0.6878E-04
  1558.51    0.7744E-04
  1560.83    0.8782E-04
  1563.14    0.1004E-03
  1565.45    0.1157E-03
  1567.77    0.1347E-03
  1570.08    0.1585E-03
  1572.40    0.1887E-03
  1574.71    0.2275E-03
  1577.02    0.2780E-03
  1579.34    0.3442E-03
  1581.65    0.4309E-03
  1583.97    0.5426E-03
  1586.28    0.6789E-03
  1588.59    0.8259E-03
  1590.91    0.9465E-03
  1593.22    0.9898E-03
  1595.54    0.9327E-03
  1597.85    0.8052E-03
  1600.17    0.6580E-03
  1602.48    0.5249E-03
  1604.79    0.4170E-03
  1607.11    0.3335E-03
  1609.42    0.2699E-03
  1611.74    0.2213E-03
  1614.05    0.1839E-03
  1616.36    0.1548E-03
  1618.68    0.1318E-03
  1620.99    0.1134E-03
  1623.31    0.9847E-04
  1625.62    0.8627E-04
  1627.93    0.7617E-04
  1630.25    0.6772E-04
  1632.56    0.6060E-04
  1634.88    0.5454E-04
  1637.19    0.4934E-04
  1639.50    0.4486E-04
  1641.82    0.4097E-04
  1644.13    0.3757E-04
  1646.45    0.3458E-04
  1648.76    0.3194E-04
  1651.08    0.2959E-04
  1653.39    0.2751E-04
  1655.70    0.2564E-04
  1658.02    0.2396E-04
  1660.33    0.2245E-04
  1662.65    0.2108E-04
  1664.96    0.1984E-04
  1667.27    0.1871E-04
  1669.59    0.1768E-04
  1671.90    0.1674E-04
  1674.22    0.1588E-04
  1676.53    0.1508E-04
  1678.84    0.1435E-04
  1681.16    0.1367E-04
  1683.47    0.1305E-04
  1685.79    0.1247E-04
  1688.10    0.1193E-04
  1690.42    0.1143E-04
  1692.73    0.1096E-04
  1695.04    0.1053E-04
  1697.36    0.1012E-04
  1699.67    0.9738E-05
  1701.99    0.9381E-05
  1704.30    0.9046E-05
  1706.61    0.8731E-05
  1708.93    0.8435E-05
  1711.24    0.8156E-05
  1713.56    0.7893E-05
  1715.87    0.7645E-05
  1718.18    0.7410E-05
  1720.50    0.7188E-05
  1722.81    0.6978E-05
  1725.13    0.6779E-05
  1727.44    0.6590E-05
  1729.75    0.6411E-05
  1732.07    0.6241E-05
  1734.38    0.6079E-05
  1736.70    0.5925E-05
  1739.01    0.5779E-05
  1741.33    0.5639E-05
  1743.64    0.5506E-05
  1745.95    0.5378E-05
  1748.27    0.5257E-05
  1750.58    0.5141E-05
  1752.90    0.5030E-05
  1755.21    0.4924E-05
  1757.52    0.4823E-05
  1759.84    0.4725E-05
  1762.15    0.4632E-05
  1764.47    0.4543E-05
  1766.78    0.4457E-05
  1769.09    0.4375E-05
  1771.41    0.4296E-05
  1773.72    0.4220E-05
  1776.04    0.4148E-05
  1778.35    0.4078E-05
  1780.67    0.4010E-05
  1782.98    0.3946E-05
  1785.29    0.3883E-05
  1787.61    0.3823E-05
  1789.92    0.3765E-05
  1792.24    0.3710E-05
  1794.55    0.3656E-05
  1796.86    0.3604E-05
  1799.18    0.3554E-05
  1801.49    0.3506E-05
  1803.81    0.3460E-05
  1806.12    0.3415E-05
  1808.43    0.3372E-05
  1810.75    0.3330E-05
  1813.06    0.3289E-05
  1815.38    0.3250E-05
  1817.69    0.3212E-05
  1820.00    0.3176E-05
  1822.32    0.3141E-05
  1824.63    0.3106E-05
  1826.95    0.3073E-05
  1829.26    0.3041E-05
  1831.58    0.3011E-05
  1833.89    0.2981E-05
  1836.20    0.2952E-05
  1838.52    0.2923E-05
  1840.83    0.2896E-05
  1843.15    0.2870E-05
  1845.46    0.2844E-05
  1847.77    0.2820E-05
  1850.09    0.2796E-05
  1852.40    0.2772E-05
  1854.72    0.2750E-05
  1857.03    0.2728E-05
  1859.34    0.2707E-05
  1861.66    0.2686E-05
  1863.97    0.2666E-05
  1866.29    0.2647E-05
  1868.60    0.2628E-05
  1870.91    0.2610E-05
  1873.23    0.2592E-05
  1875.54    0.2575E-05
  1877.86    0.2559E-05
  1880.17    0.2543E-05
  1882.49    0.2527E-05
  1884.80    0.2512E-05
  1887.11    0.2497E-05
  1889.43    0.2483E-05
  1891.74    0.2469E-05
  1894.06    0.2455E-05
  1896.37    0.2442E-05
  1898.68    0.2430E-05
  1901.00    0.2417E-05
  1903.31    0.2405E-05
  1905.63    0.2394E-05
  1907.94    0.2383E-05
  1910.25    0.2372E-05
  1912.57    0.2361E-05
  1914.88    0.2351E-05
  1917.20    0.2341E-05
  1919.51    0.2331E-05
  1921.83    0.2322E-05
  1924.14    0.2313E-05
  1926.45    0.2304E-05
  1928.77    0.2296E-05
  1931.08    0.2288E-05
  1933.40    0.2280E-05
  1935.71    0.2272E-05
  1938.02    0.2264E-05
  1940.34    0.2257E-05
  1942.65    0.2250E-05
  1944.97    0.2243E-05
  1947.28    0.2237E-05
  1949.59    0.2230E-05
  1951.91    0.2224E-05
  1954.22    0.2218E-05
  1956.54    0.2213E-05
  1958.85    0.2207E-05
  1961.16    0.2202E-05
  1963.48    0.2197E-05
  1965.79    0.2192E-05
  1968.11    0.2187E-05
  1970.42    0.2182E-05
  1972.74    0.2178E-05
  1975.05    0.2174E-05
  1977.36    0.2170E-05
  1979.68    0.2166E-05
  1981.99    0.2162E-05
  1984.31    0.2158E-05
  1986.62    0.2155E-05
  1988.93    0.2151E-05
  1991.25    0.2148E-05
  1993.56    0.2145E-05
  1995.88    0.2142E-05
  1998.19    0.2140E-05
  2000.50    0.2137E-05
  2002.82    0.2134E-05
  2005.13    0.2132E-05
  2007.45    0.2130E-05
  2009.76    0.2128E-05
  2012.07    0.2126E-05
  2014.39    0.2124E-05
  2016.70    0.2122E-05
  2019.02    0.2121E-05
  2021.33    0.2119E-05
  2023.65    0.2118E-05
  2025.96    0.2116E-05
  2028.27    0.2115E-05
  2030.59    0.2114E-05
  2032.90    0.2113E-05
  2035.22    0.2112E-05
  2037.53    0.2111E-05
  2039.84    0.2111E-05
  2042.16    0.2110E-05
  2044.47    0.2110E-05
  2046.79    0.2109E-05
  2049.10    0.2109E-05
  2051.41    0.2109E-05
  2053.73    0.2109E-05
  2056.04    0.2109E-05
  2058.36    0.2109E-05
  2060.67    0.2109E-05
  2062.99    0.2109E-05
  2065.30    0.2110E-05
  2067.61    0.2110E-05
  2069.93    0.2111E-05
  2072.24    0.2111E-05
  2074.56    0.2112E-05
  2076.87    0.2113E-05
  2079.18    0.2113E-05
  2081.50    0.2114E-05
  2083.81    0.2115E-05
  2086.13    0.2116E-05
  2088.44    0.2117E-05
  2090.75    0.2119E-05
  2093.07    0.2120E-05
  2095.38    0.2121E-05
  2097.70    0.2123E-05
  2100.01    0.2124E-05
  2102.32    0.2126E-05
  2104.64    0.2127E-05
  2106.95    0.2129E-05
  2109.27    0.2131E-05
  2111.58    0.2133E-05
  2113.90    0.2135E-05
  2116.21    0.2137E-05
  2118.52    0.2139E-05
  2120.84    0.2141E-05
  2123.15    0.2143E-05
  2125.47    0.2145E-05
  2127.78    0.2147E-05
  2130.09    0.2150E-05
  2132.41    0.2152E-05
  2134.72    0.2155E-05
  2137.04    0.2157E-05
  2139.35    0.2160E-05
  2141.66    0.2162E-05
  2143.98    0.2165E-05
  2146.29    0.2168E-05
  2148.61    0.2171E-05
  2150.92    0.2174E-05
  2153.23    0.2177E-05
  2155.55    0.2180E-05
  2157.86    0.2183E-05
  2160.18    0.2186E-05
  2162.49    0.2189E-05
  2164.81    0.2192E-05
  2167.12    0.2195E-05
  2169.43    0.2199E-05
  2171.75    0.2202E-05
  2174.06    0.2206E-05
  2176.38    0.2209E-05
  2178.69    0.2213E-05
  2181.00    0.2216E-05
  2183.32    0.2220E-05
  2185.63    0.2224E-05
  2187.95    0.2228E-05
  2190.26    0.2231E-05
  2192.57    0.2235E-05
  2194.89    0.2239E-05
  2197.20    0.2243E-05
  2199.52    0.2247E-05
  2201.83    0.2251E-05
  2204.15    0.2255E-05
  2206.46    0.2260E-05
  2208.77    0.2264E-05
  2211.09    0.2268E-05
  2213.40    0.2272E-05
  2215.72    0.2277E-05
  2218.03    0.2281E-05
  2220.34    0.2286E-05
  2222.66    0.2290E-05
  2224.97    0.2295E-05
  2227.29    0.2300E-05
  2229.60    0.2304E-05
  2231.91    0.2309E-05
  2234.23    0.2314E-05
  2236.54    0.2319E-05
  2238.86    0.2324E-05
  2241.17    0.2329E-05
  2243.48    0.2334E-05
  2245.80    0.2339E-05
  2248.11    0.2344E-05
  2250.43    0.2349E-05
  2252.74    0.2354E-05
  2255.06    0.2359E-05
  2257.37    0.2365E-05
  2259.68    0.2370E-05
  2262.00    0.2375E-05
  2264.31    0.2381E-05
  2266.63    0.2386E-05
  2268.94    0.2392E-05
  2271.25    0.2397E-05
  2273.57    0.2403E-05
  2275.88    0.2409E-05
  2278.20    0.2414E-05
  2280.51    0.2420E-05
  2282.82    0.2426E-05
  2285.14    0.2432E-05
  2287.45    0.2438E-05
  2289.77    0.2444E-05
  2292.08    0.2450E-05
  2294.39    0.2456E-05
  2296.71    0.2462E-05
  2299.02    0.2468E-05
  2301.34    0.2475E-05
  2303.65    0.2481E-05
  2305.97    0.2487E-05
  2308.28    0.2494E-05
  2310.59    0.2500E-05
  2312.91    0.2507E-05
  2315.22    0.2513E-05
  2317.54    0.2520E-05
  2319.85    0.2526E-05
  2322.16    0.2533E-05
  2324.48    0.2540E-05
  2326.79    0.2547E-05
  2329.11    0.2553E-05
  2331.42    0.2560E-05
  2333.73    0.2567E-05
  2336.05    0.2574E-05
  2338.36    0.2581E-05
  2340.68    0.2588E-05
  2342.99    0.2596E-05
  2345.31    0.2603E-05
  2347.62    0.2610E-05
  2349.93    0.2617E-05
  2352.25    0.2625E-05
  2354.56    0.2632E-05
  2356.88    0.2640E-05
  2359.19    0.2647E-05
  2361.50    0.2655E-05
  2363.82    0.2662E-05
  2366.13    0.2670E-05
  2368.45    0.2678E-05
  2370.76    0.2686E-05
  2373.07    0.2694E-05
  2375.39    0.2701E-05
  2377.70    0.2709E-05
  2380.02    0.2717E-05
  2382.33    0.2726E-05
  2384.64    0.2734E-05
  2386.96    0.2742E-05
  2389.27    0.2750E-05
  2391.59    0.2758E-05
  2393.90    0.2767E-05
  2396.22    0.2775E-05
  2398.53    0.2784E-05
  2400.84    0.2792E-05
  2403.16    0.2801E-05
  2405.47    0.2809E-05
  2407.79    0.2818E-05
  2410.10    0.2827E-05
  2412.41    0.2836E-05
  2414.73    0.2845E-05
  2417.04    0.2854E-05
  2419.36    0.2863E-05
  2421.67    0.2872E-05
  2423.98    0.2881E-05
  2426.30    0.2890E-05
  2428.61    0.2899E-05
  2430.93    0.2909E-05
  2433.24    0.2918E-05
  2435.56    0.2927E-05
  2437.87    0.2937E-05
  2440.18    0.2946E-05
  2442.50    0.2956E-05
  2444.81    0.2966E-05
  2447.13    0.2975E-05
  2449.44    0.2985E-05
  2451.75    0.2995E-05
  2454.07    0.3005E-05
  2456.38    0.3015E-05
  2458.70    0.3025E-05
  2461.01    0.3035E-05
  2463.32    0.3046E-05
  2465.64    0.3056E-05
  2467.95    0.3066E-05
  2470.27    0.3077E-05
  2472.58    0.3087E-05
  2474.89    0.3098E-05
  2477.21    0.3108E-05
  2479.52    0.3119E-05
  2481.84    0.3130E-05
  2484.15    0.3140E-05
  2486.47    0.3151E-05
  2488.78    0.3162E-05
  2491.09    0.3173E-05
  2493.41    0.3185E-05
  2495.72    0.3196E-05
  2498.04    0.3207E-05
  2500.35    0.3218E-05
  2502.66    0.3230E-05
  2504.98    0.3241E-05
  2507.29    0.3253E-05
  2509.61    0.3264E-05
  2511.92    0.3276E-05
  2514.23    0.3288E-05
  2516.55    0.3300E-05
  2518.86    0.3312E-05
  2521.18    0.3324E-05
  2523.49    0.3336E-05
  2525.80    0.3348E-05
  2528.12    0.3360E-05
  2530.43    0.3373E-05
  2532.75    0.3385E-05
  2535.06    0.3398E-05
  2537.38    0.3410E-05
  2539.69    0.3423E-05
  2542.00    0.3436E-05
  2544.32    0.3448E-05
  2546.63    0.3461E-05
  2548.95    0.3474E-05
  2551.26    0.3487E-05
  2553.57    0.3501E-05
  2555.89    0.3514E-05
  2558.20    0.3527E-05
  2560.52    0.3541E-05
  2562.83    0.3554E-05
  2565.14    0.3568E-05
  2567.46    0.3582E-05
  2569.77    0.3595E-05
  2572.09    0.3609E-05
  2574.40    0.3623E-05
  2576.72    0.3637E-05
  2579.03    0.3652E-05
  2581.34    0.3666E-05
  2583.66    0.3680E-05
  2585.97    0.3695E-05
  2588.29    0.3709E-05
  2590.60    0.3724E-05
  2592.91    0.3739E-05
  2595.23    0.3754E-05
  2597.54    0.3768E-05
  2599.86    0.3784E-05
  2602.17    0.3799E-05
  2604.48    0.3814E-05
  2606.80    0.3829E-05
  2609.11    0.3845E-05
  2611.43    0.3860E-05
  2613.74    0.3876E-05
  2616.05    0.3892E-05
  2618.37    0.3908E-05
  2620.68    0.3924E-05
  2623.00    0.3940E-05
  2625.31    0.3956E-05
  2627.63    0.3972E-05
  2629.94    0.3989E-05
  2632.25    0.4005E-05
  2634.57    0.4022E-05
  2636.88    0.4039E-05
  2639.20    0.4056E-05
  2641.51    0.4073E-05
  2643.82    0.4090E-05
  2646.14    0.4107E-05
  2648.45    0.4125E-05
  2650.77    0.4142E-05
  2653.08    0.4160E-05
  2655.39    0.4177E-05
  2657.71    0.4195E-05
  2660.02    0.4213E-05
  2662.34    0.4231E-05
  2664.65    0.4250E-05
  2666.96    0.4268E-05
  2669.28    0.4287E-05
  2671.59    0.4305E-05
  2673.91    0.4324E-05
  2676.22    0.4343E-05
  2678.54    0.4362E-05
  2680.85    0.4381E-05
  2683.16    0.4400E-05
  2685.48    0.4420E-05
  2687.79    0.4439E-05
  2690.11    0.4459E-05
  2692.42    0.4479E-05
  2694.73    0.4499E-05
  2697.05    0.4519E-05
  2699.36    0.4539E-05
  2701.68    0.4560E-05
  2703.99    0.4580E-05
  2706.30    0.4601E-05
  2708.62    0.4622E-05
  2710.93    0.4643E-05
  2713.25    0.4664E-05
  2715.56    0.4686E-05
  2717.88    0.4707E-05
  2720.19    0.4729E-05
  2722.50    0.4751E-05
  2724.82    0.4773E-05
  2727.13    0.4795E-05
  2729.45    0.4817E-05
  2731.76    0.4840E-05
  2734.07    0.4862E-05
  2736.39    0.4885E-05
  2738.70    0.4908E-05
  2741.02    0.4931E-05
  2743.33    0.4955E-05
  2745.64    0.4978E-05
  2747.96    0.5002E-05
  2750.27    0.5026E-05
  2752.59    0.5050E-05
  2754.90    0.5074E-05
  2757.21    0.5098E-05
  2759.53    0.5123E-05
  2761.84    0.5148E-05
  2764.16    0.5173E-05
  2766.47    0.5198E-05
  2768.79    0.5223E-05
  2771.10    0.5249E-05
  2773.41    0.5274E-05
  2775.73    0.5300E-05
  2778.04    0.5326E-05
  2780.36    0.5353E-05
  2782.67    0.5379E-05
  2784.98    0.5406E-05
  2787.30    0.5433E-05
  2789.61    0.5460E-05
  2791.93    0.5487E-05
  2794.24    0.5515E-05
  2796.55    0.5543E-05
  2798.87    0.5571E-05
  2801.18    0.5599E-05
  2803.50    0.5628E-05
  2805.81    0.5656E-05
  2808.12    0.5685E-05
  2810.44    0.5714E-05
  2812.75    0.5744E-05
  2815.07    0.5773E-05
  2817.38    0.5803E-05
  2819.70    0.5833E-05
  2822.01    0.5864E-05
  2824.32    0.5894E-05
  2826.64    0.5925E-05
  2828.95    0.5956E-05
  2831.27    0.5988E-05
  2833.58    0.6019E-05
  2835.89    0.6051E-05
  2838.21    0.6083E-05
  2840.52    0.6116E-05
  2842.84    0.6148E-05
  2845.15    0.6181E-05
  2847.46    0.6215E-05
  2849.78    0.6248E-05
  2852.09    0.6282E-05
  2854.41    0.6316E-05
  2856.72    0.6350E-05
  2859.04    0.6385E-05
  2861.35    0.6420E-05
  2863.66    0.6455E-05
  2865.98    0.6490E-05
  2868.29    0.6526E-05
  2870.61    0.6562E-05
  2872.92    0.6599E-05
  2875.23    0.6636E-05
  2877.55    0.6673E-05
  2879.86    0.6710E-05
  2882.18    0.6748E-05
  2884.49    0.6786E-05
  2886.80    0.6824E-05
  2889.12    0.6863E-05
  2891.43    0.6902E-05
  2893.75    0.6941E-05
  2896.06    0.6981E-05
  2898.37    0.7021E-05
  2900.69    0.7061E-05
  2903.00    0.7102E-05
  2905.32    0.7143E-05
  2907.63    0.7185E-05
  2909.95    0.7227E-05
  2912.26    0.7269E-05
  2914.57    0.7312E-05
  2916.89    0.7355E-05
  2919.20    0.7398E-05
  2921.52    0.7442E-05
  2923.83    0.7486E-05
  2926.14    0.7531E-05
  2928.46    0.7576E-05
  2930.77    0.7621E-05
  2933.09    0.7667E-05
  2935.40    0.7713E-05
  2937.71    0.7760E-05
  2940.03    0.7807E-05
  2942.34    0.7855E-05
  2944.66    0.7903E-05
  2946.97    0.7951E-05
  2949.28    0.8000E-05
  2951.60    0.8049E-05
  2953.91    0.8099E-05
  2956.23    0.8150E-05
  2958.54    0.8200E-05
  2960.86    0.8252E-05
  2963.17    0.8303E-05
  2965.48    0.8356E-05
  2967.80    0.8409E-05
  2970.11    0.8462E-05
  2972.43    0.8516E-05
  2974.74    0.8570E-05
  2977.05    0.8625E-05
  2979.37    0.8680E-05
  2981.68    0.8736E-05
  2984.00    0.8793E-05
  2986.31    0.8850E-05
  2988.62    0.8907E-05
  2990.94    0.8966E-05
  2993.25    0.9024E-05
  2995.57    0.9084E-05
  2997.88    0.9144E-05
  3000.20    0.9204E-05
  3002.51    0.9265E-05
  3004.82    0.9327E-05
  3007.14    0.9390E-05
  3009.45    0.9453E-05
  3011.77    0.9516E-05
  3014.08    0.9581E-05
  3016.39    0.9646E-05
  3018.71    0.9711E-05
  3021.02    0.9778E-05
  3023.34    0.9845E-05
  3025.65    0.9913E-05
  3027.96    0.9981E-05
  3030.28    0.1005E-04
  3032.59    0.1012E-04
  3034.91    0.1019E-04
  3037.22    0.1026E-04
  3039.53    0.1033E-04
  3041.85    0.1041E-04
  3044.16    0.1048E-04
  3046.48    0.1056E-04
  3048.79    0.1063E-04
  3051.11    0.1071E-04
  3053.42    0.1078E-04
  3055.73    0.1086E-04
  3058.05    0.1094E-04
  3060.36    0.1102E-04
  3062.68    0.1110E-04
  3064.99    0.1118E-04
  3067.30    0.1126E-04
  3069.62    0.1135E-04
  3071.93    0.1143E-04
  3074.25    0.1152E-04
  3076.56    0.1160E-04
  3078.87    0.1169E-04
  3081.19    0.1178E-04
  3083.50    0.1187E-04
  3085.82    0.1196E-04
  3088.13    0.1205E-04
  3090.45    0.1214E-04
  3092.76    0.1223E-04
  3095.07    0.1233E-04
  3097.39    0.1242E-04
  3099.70    0.1252E-04
  3102.02    0.1262E-04
  3104.33    0.1272E-04
  3106.64    0.1282E-04
  3108.96    0.1292E-04
  3111.27    0.1302E-04
  3113.59    0.1312E-04
  3115.90    0.1323E-04
  3118.21    0.1333E-04
  3120.53    0.1344E-04
  3122.84    0.1355E-04
  3125.16    0.1366E-04
  3127.47    0.1377E-04
  3129.78    0.1389E-04
  3132.10    0.1400E-04
  3134.41    0.1412E-04
  3136.73    0.1423E-04
  3139.04    0.1435E-04
  3141.36    0.1447E-04
  3143.67    0.1459E-04
  3145.98    0.1472E-04
  3148.30    0.1484E-04
  3150.61    0.1497E-04
  3152.93    0.1509E-04
  3155.24    0.1522E-04
  3157.55    0.1536E-04
  3159.87    0.1549E-04
  3162.18    0.1562E-04
  3164.50    0.1576E-04
  3166.81    0.1590E-04
  3169.12    0.1604E-04
  3171.44    0.1618E-04
  3173.75    0.1633E-04
  3176.07    0.1647E-04
  3178.38    0.1662E-04
  3180.69    0.1677E-04
  3183.01    0.1692E-04
  3185.32    0.1708E-04
  3187.64    0.1723E-04
  3189.95    0.1739E-04
  3192.27    0.1755E-04
  3194.58    0.1771E-04
  3196.89    0.1788E-04
  3199.21    0.1805E-04
  3201.52    0.1822E-04
  3203.84    0.1839E-04
  3206.15    0.1856E-04
  3208.46    0.1874E-04
  3210.78    0.1892E-04
  3213.09    0.1910E-04
  3215.41    0.1929E-04
  3217.72    0.1948E-04
  3220.03    0.1967E-04
  3222.35    0.1986E-04
  3224.66    0.2006E-04
  3226.98    0.2026E-04
  3229.29    0.2046E-04
  3231.61    0.2067E-04
  3233.92    0.2088E-04
  3236.23    0.2109E-04
  3238.55    0.2130E-04
  3240.86    0.2152E-04
  3243.18    0.2174E-04
  3245.49    0.2197E-04
  3247.80    0.2220E-04
  3250.12    0.2243E-04
  3252.43    0.2267E-04
  3254.75    0.2291E-04
  3257.06    0.2315E-04
  3259.37    0.2340E-04
  3261.69    0.2365E-04
  3264.00    0.2391E-04
  3266.32    0.2417E-04
  3268.63    0.2443E-04
  3270.94    0.2470E-04
  3273.26    0.2497E-04
  3275.57    0.2525E-04
  3277.89    0.2553E-04
  3280.20    0.2582E-04
  3282.52    0.2611E-04
  3284.83    0.2641E-04
  3287.14    0.2671E-04
  3289.46    0.2702E-04
  3291.77    0.2734E-04
  3294.09    0.2765E-04
  3296.40    0.2798E-04
  3298.71    0.2831E-04
  3301.03    0.2865E-04
  3303.34    0.2899E-04
  3305.66    0.2934E-04
  3307.97    0.2969E-04
  3310.28    0.3005E-04
  3312.60    0.3042E-04
  3314.91    0.3080E-04
  3317.23    0.3118E-04
  3319.54    0.3157E-04
  3321.85    0.3196E-04
  3324.17    0.3237E-04
  3326.48    0.3278E-04
  3328.80    0.3320E-04
  3331.11    0.3363E-04
  3333.43    0.3406E-04
  3335.74    0.3451E-04
  3338.05    0.3496E-04
  3340.37    0.3542E-04
  3342.68    0.3590E-04
  3345.00    0.3638E-04
  3347.31    0.3687E-04
  3349.62    0.3737E-04
  3351.94    0.3788E-04
  3354.25    0.3841E-04
  3356.57    0.3894E-04
  3358.88    0.3949E-04
  3361.19    0.4004E-04
  3363.51    0.4061E-04
  3365.82    0.4119E-04
  3368.14    0.4179E-04
  3370.45    0.4239E-04
  3372.77    0.4301E-04
  3375.08    0.4365E-04
  3377.39    0.4429E-04
  3379.71    0.4496E-04
  3382.02    0.4563E-04
  3384.34    0.4633E-04
  3386.65    0.4704E-04
  3388.96    0.4776E-04
  3391.28    0.4851E-04
  3393.59    0.4927E-04
  3395.91    0.5005E-04
  3398.22    0.5084E-04
  3400.53    0.5166E-04
  3402.85    0.5250E-04
  3405.16    0.5335E-04
  3407.48    0.5423E-04
  3409.79    0.5513E-04
  3412.10    0.5606E-04
  3414.42    0.5701E-04
  3416.73    0.5798E-04
  3419.05    0.5898E-04
  3421.36    0.6000E-04
  3423.68    0.6105E-04
  3425.99    0.6213E-04
  3428.30    0.6324E-04
  3430.62    0.6437E-04
  3432.93    0.6554E-04
  3435.25    0.6674E-04
  3437.56    0.6798E-04
  3439.87    0.6925E-04
  3442.19    0.7056E-04
  3444.50    0.7190E-04
  3446.82    0.7328E-04
  3449.13    0.7471E-04
  3451.44    0.7617E-04
  3453.76    0.7768E-04
  3456.07    0.7924E-04
  3458.39    0.8084E-04
  3460.70    0.8250E-04
  3463.01    0.8420E-04
  3465.33    0.8596E-04
  3467.64    0.8778E-04
  3469.96    0.8965E-04
  3472.27    0.9158E-04
  3474.59    0.9358E-04
  3476.90    0.9565E-04
  3479.21    0.9779E-04
  3481.53    0.9999E-04
  3483.84    0.1023E-03
  3486.16    0.1046E-03
  3488.47    0.1071E-03
  3490.78    0.1096E-03
  3493.10    0.1123E-03
  3495.41    0.1150E-03
  3497.73    0.1178E-03
  3500.04    0.1207E-03
  3502.35    0.1238E-03
  3504.67    0.1270E-03
  3506.98    0.1303E-03
  3509.30    0.1337E-03
  3511.61    0.1372E-03
  3513.93    0.1409E-03
  3516.24    0.1448E-03
  3518.55    0.1488E-03
  3520.87    0.1530E-03
  3523.18    0.1574E-03
  3525.50    0.1619E-03
  3527.81    0.1667E-03
  3530.12    0.1717E-03
  3532.44    0.1769E-03
  3534.75    0.1824E-03
  3537.07    0.1881E-03
  3539.38    0.1941E-03
  3541.69    0.2004E-03
  3544.01    0.2070E-03
  3546.32    0.2139E-03
  3548.64    0.2212E-03
  3550.95    0.2289E-03
  3553.26    0.2370E-03
  3555.58    0.2455E-03
  3557.89    0.2546E-03
  3560.21    0.2641E-03
  3562.52    0.2742E-03
  3564.84    0.2848E-03
  3567.15    0.2961E-03
  3569.46    0.3082E-03
  3571.78    0.3209E-03
  3574.09    0.3345E-03
  3576.41    0.3490E-03
  3578.72    0.3644E-03
  3581.03    0.3809E-03
  3583.35    0.3986E-03
  3585.66    0.4176E-03
  3587.98    0.4379E-03
  3590.29    0.4598E-03
  3592.60    0.4834E-03
  3594.92    0.5088E-03
  3597.23    0.5364E-03
  3599.55    0.5662E-03
  3601.86    0.5987E-03
  3604.18    0.6340E-03
  3606.49    0.6726E-03
  3608.80    0.7149E-03
  3611.12    0.7613E-03
  3613.43    0.8124E-03
  3615.75    0.8689E-03
  3618.06    0.9315E-03
  3620.37    0.1001E-02
  3622.69    0.1079E-02
  3625.00    0.1166E-02
  3627.32    0.1264E-02
  3629.63    0.1376E-02
  3631.94    0.1502E-02
  3634.26    0.1647E-02
  3636.57    0.1814E-02
  3638.89    0.2007E-02
  3641.20    0.2232E-02
  3643.51    0.2497E-02
  3645.83    0.2811E-02
  3648.14    0.3186E-02
  3650.46    0.3640E-02
  3652.77    0.4194E-02
  3655.09    0.4879E-02
  3657.40    0.5737E-02
  3659.71    0.6823E-02
  3662.03    0.8218E-02
  3664.34    0.1003E-01
  3666.66    0.1241E-01
  3668.97    0.1552E-01
  3671.28    0.1954E-01
  3673.60    0.2446E-01
  3675.91    0.2983E-01
  3678.23    0.3434E-01
  3680.54    0.3614E-01
  3682.85    0.3427E-01
  3685.17    0.2972E-01
  3687.48    0.2436E-01
  3689.80    0.1946E-01
  3692.11    0.1548E-01
  3694.42    0.1239E-01
  3696.74    0.1003E-01
  3699.05    0.8240E-02
  3701.37    0.6861E-02
  3703.68    0.5789E-02
  3706.00    0.4946E-02
  3708.31    0.4274E-02
  3710.62    0.3732E-02
  3712.94    0.3292E-02
  3715.25    0.2930E-02
  3717.57    0.2630E-02
  3719.88    0.2380E-02
  3722.19    0.2172E-02
  3724.51    0.1996E-02
  3726.82    0.1849E-02
  3729.14    0.1726E-02
  3731.45    0.1623E-02
  3733.76    0.1539E-02
  3736.08    0.1470E-02
  3738.39    0.1418E-02
  3740.71    0.1379E-02
  3743.02    0.1354E-02
  3745.34    0.1344E-02
  3747.65    0.1349E-02
  3749.96    0.1371E-02
  3752.28    0.1411E-02
  3754.59    0.1473E-02
  3756.91    0.1562E-02
  3759.22    0.1684E-02
  3761.53    0.1848E-02
  3763.85    0.2066E-02
  3766.16    0.2357E-02
  3768.48    0.2745E-02
  3770.79    0.3262E-02
  3773.10    0.3950E-02
  3775.42    0.4847E-02
  3777.73    0.5960E-02
  3780.05    0.7193E-02
  3782.36    0.8260E-02
  3784.67    0.8730E-02
  3786.99    0.8348E-02
  3789.30    0.7310E-02
  3791.62    0.6049E-02
  3793.93    0.4880E-02
  3796.25    0.3920E-02
  3798.56    0.3173E-02
  3800.87    0.2601E-02
  3803.19    0.2163E-02
  3805.50    0.1824E-02
  3807.82    0.1560E-02
  3810.13    0.1350E-02
  3812.44    0.1181E-02
  3814.76    0.1044E-02
  3817.07    0.9302E-03
  3819.39    0.8358E-03
  3821.70    0.7561E-03
  3824.01    0.6884E-03
  3826.33    0.6302E-03
  3828.64    0.5799E-03
  3830.96    0.5360E-03
  3833.27    0.4975E-03
  3835.58    0.4635E-03
  3837.90    0.4333E-03
  3840.21    0.4063E-03
  3842.53    0.3820E-03
  3844.84    0.3602E-03
  3847.16    0.3404E-03
